{"resourceType":"Bundle","id":"tests-charity-with-danger-signs-bundle","type":"transaction","entry":[{"resource":{"resourceType":"Encounter","id":"encounter-charity-with-danger-signs","meta":{"profile":["http://fhir.org/guides/who/anc-cds/StructureDefinition/anc-encounter","http://fhir.org/guides/who/core/StructureDefinition/who-encounter"]},"status":"in-progress","class":{"system":"http://terminology.hl7.org/CodeSystem/v3-ActCode","code":"AMB","display":"ambulatory"},"type":[{"coding":[{"system":"http://fhir.org/guides/who/anc-cds/CodeSystem/anc-care-codes","code":"ANC.Contact","display":"Antenatal care contact"},{"system":"http://fhir.org/guides/who/anc-cds/CodeSystem/anc-custom-codes","code":"ANC.B5.DE2","display":"First antenatal care contact"}],"text":"Antenatal care contact"}],"subject":{"reference":"Patient/charity-with-danger-signs"},"episodeOfCare":[{"reference":"EpisodeOfCare/charity-with-danger-signs-pregnancy-episode"}],"participant":[{"type":[{"coding":[{"system":"http://terminology.hl7.org/CodeSystem/v3-ParticipationType","code":"PPRF","display":"primary performer"}]}],"individual":{"reference":"Practitioner/jane"}}],"period":{"fhir_comments":[" TODO: ServiceRequest "],"start":"2021-03-24"},"reasonCode":[{"coding":[{"system":"http://fhir.org/guides/who/anc-cds/CodeSystem/anc-custom-codes","code":"ANC.B5.DE2","display":"First antenatal care contact"},{"system":"http://snomed.info/sct","code":"424441002","display":"Prenatal initial visit (regime/therapy)"}]}],"diagnosis":[{"fhir_comments":[" TODO: account "," TODO: location "," TODO: serviceProvider "],"condition":{"reference":"Condition/charity-with-danger-signs-pregnancy"},"rank":1}]},"request":{"method":"PUT","url":"Encounter/encounter-charity-with-danger-signs"}},{"resource":{"resourceType":"GuidanceResponse","id":"charity-with-danger-signs-response","contained":[{"resourceType":"Parameters","id":"output","parameter":[{"name":"Should Proceed with ANC contact","valueBoolean":false},{"name":"Should Proceed with ANC contact OR Referral for Central cyanosis","valueBoolean":true},{"name":"Should Proceed with ANC contact OR Referral","valueBoolean":false}]}],"moduleCanonical":"http://fhir.org/guides/who/anc-cds/Library/ANCDT01","status":"success","subject":{"reference":"Patient/charity-with-danger-signs"},"outputParameters":{"reference":"#output"}},"request":{"method":"PUT","url":"GuidanceResponse/charity-with-danger-signs-response"}},{"resource":{"resourceType":"Observation","id":"anc-b5-de48-charity-with-danger-signs","meta":{"profile":["http://fhir.org/guides/who/anc-cds/StructureDefinition/anc-b5-de48"]},"status":"final","code":{"coding":[{"system":"http://fhir.org/guides/who/anc-cds/CodeSystem/anc-custom-codes","code":"ANC.B5.DE48","display":"Danger signs"}]},"subject":{"reference":"Patient/charity-with-danger-signs"},"encounter":{"reference":"Encounter/encounter-charity-with-danger-signs"},"valueCodeableConcept":{"coding":[{"system":"http://fhir.org/guides/who/anc-cds/CodeSystem/anc-custom-codes","code":"ANC.B5.DE51","display":"Central cyanosis"},{"system":"http://snomed.info/sct","code":"95837007","display":"Central cyanosis (disorder)"}]}},"request":{"method":"PUT","url":"Observation/anc-b5-de48-charity-with-danger-signs"}},{"resource":{"resourceType":"Patient","id":"charity-with-danger-signs","meta":{"profile":["http://fhir.org/guides/who/anc-cds/StructureDefinition/anc-patient"]},"extension":[{"url":"http://fhir.org/guides/who/anc-cds/StructureDefinition/educationlevel","valueCodeableConcept":{"coding":[{"system":"http://fhir.org/guides/who/anc-cds/CodeSystem/anc-custom-codes","code":"ANC.B6.DE4","display":"Primary school"}]}},{"url":"http://fhir.org/guides/who/anc-cds/StructureDefinition/occupation","valueCodeableConcept":{"coding":[{"system":"http://fhir.org/guides/who/anc-cds/CodeSystem/anc-custom-codes","code":"ANC.B6.DE12","display":"Informal employment (other)"}]}}],"identifier":[{"use":"official","system":"http://example.org/identifier","value":"charity-otala-1"}],"name":[{"use":"official","text":"Charity Otala","family":"Otala","given":["Charity"]}],"telecom":[{"system":"phone","value":"555-555-2003","use":"mobile"}],"birthDate":"1994-07-01","address":[{"use":"home","text":"2222 Home Street"}],"generalPractitioner":[{"reference":"PractitionerRole/anc-practitionerrole-example"}]},"request":{"method":"PUT","url":"Patient/charity-with-danger-signs"}}]}