{
  "resourceType": "Bundle",
  "id": "tests-charity-with-danger-signs-bundle",
  "type": "transaction",
  "entry": [ {
    "resource": {
      "resourceType": "GuidanceResponse",
      "id": "charity-with-danger-signs-response",
      "contained": [ {
        "resourceType": "Parameters",
        "id": "output",
        "parameter": [ {
          "name": "Should Proceed with ANC contact",
          "valueBoolean": false
        }, {
          "name": "Should Proceed with ANC contact OR Referral for Central cyanosis",
          "valueBoolean": true
        }, {
          "name": "Should Proceed with ANC contact OR Referral",
          "valueBoolean": false
        } ]
      } ],
      "moduleCanonical": "http://fhir.org/guides/who/anc-cds/Library/ANCDT01",
      "status": "success",
      "subject": {
        "reference": "Patient/charity-with-danger-signs"
      },
      "outputParameters": {
        "reference": "#output"
      }
    },
    "request": {
      "method": "PUT",
      "url": "GuidanceResponse/charity-with-danger-signs-response"
    }
  }, {
    "resource": {
      "resourceType": "Observation",
      "id": "anc-b5-de48-charity-with-danger-signs",
      "meta": {
        "profile": [ "http://fhir.org/guides/who/anc-cds/StructureDefinition/anc-b5-de48" ]
      },
      "status": "final",
      "code": {
        "coding": [ {
          "system": "http://fhir.org/guides/who/anc-cds/CodeSystem/anc-custom-codes",
          "code": "ANC.B5.DE48",
          "display": "Danger signs"
        } ]
      },
      "subject": {
        "reference": "Patient/charity-with-danger-signs"
      },
      "valueCodeableConcept": {
        "coding": [ {
          "system": "http://fhir.org/guides/who/anc-cds/CodeSystem/anc-custom-codes",
          "code": "ANC.B5.DE51",
          "display": "Central cyanosis"
        }, {
          "system": "http://snomed.info/sct",
          "code": "95837007",
          "display": "Central cyanosis (disorder)"
        } ]
      }
    },
    "request": {
      "method": "PUT",
      "url": "Observation/anc-b5-de48-charity-with-danger-signs"
    }
  }, {
    "resource": {
      "resourceType": "Patient",
      "id": "charity-with-danger-signs",
      "meta": {
        "profile": [ "http://fhir.org/guides/who/anc-cds/StructureDefinition/anc-patient" ]
      },
      "extension": [ {
        "url": "http://fhir.org/guides/who/anc-cds/StructureDefinition/educationlevel",
        "valueCodeableConcept": {
          "coding": [ {
            "system": "http://fhir.org/guides/who/anc-cds/CodeSystem/anc-custom-codes",
            "code": "ANC.B6.DE4",
            "display": "Primary school"
          } ]
        }
      }, {
        "url": "http://fhir.org/guides/who/anc-cds/StructureDefinition/occupation",
        "valueCodeableConcept": {
          "coding": [ {
            "system": "http://fhir.org/guides/who/anc-cds/CodeSystem/anc-custom-codes",
            "code": "ANC.B6.DE12",
            "display": "Informal employment (other)"
          } ]
        }
      } ],
      "identifier": [ {
        "use": "official",
        "system": "http://example.org/identifier",
        "value": "charity-otala-1"
      } ],
      "name": [ {
        "use": "official",
        "text": "Charity Otala",
        "family": "Otala",
        "given": [ "Charity" ]
      } ],
      "telecom": [ {
        "system": "phone",
        "value": "555-555-2003",
        "use": "mobile"
      } ],
      "birthDate": "1994-07-01",
      "address": [ {
        "use": "home",
        "text": "2222 Home Street"
      } ],
      "generalPractitioner": [ {
        "reference": "PractitionerRole/anc-practitionerrole-example"
      } ]
    },
    "request": {
      "method": "PUT",
      "url": "Patient/charity-with-danger-signs"
    }
  } ]
}